! Center RA: 22 02 43.29137,  Dec: +42 16 39.97995 (2000.0)
! Established model.
! Flux (Jy) Radius (mas)  Theta (deg)  Major FWHM (mas)  Axial ratio   Phi (deg) T \
! Freq (Hz)     SpecIndex
   1.88288      0.00000      0.00000 
 0.0602547     0.100000      180.000 
 0.0347356     0.200000      180.000 
 0.0495627     0.100000      0.00000 
  0.108603     0.316228     -161.565 
 0.0793885     0.200000      0.00000 
 0.0135226     0.300000      180.000 
 0.0816554     0.223607      26.5651 
 0.0972172     0.400000      180.000 
  0.129780     0.412311     -165.964 
  0.123745     0.300000      0.00000 
 0.0687086      1.51327     -172.405 
 0.0596652      1.62788     -169.380 
 0.0932725     0.316228      18.4349 
 0.0106083      1.21655     -170.538 
0.00561562      1.61245     -172.875 
 0.0199741      1.20416     -175.236 
 0.0145929      2.10950     -174.560 
 0.0163019      1.10454     -174.806 
 0.0205936      2.20907     -174.806 
 0.0138357      1.11803     -169.695 
 0.0167570      2.30217     -177.510 
 0.0185227      2.13776     -169.216 
0.00291766      1.64924     -165.964 
0.00566702      2.40208     -177.614 
0.00543397      1.70000      180.000 
0.00757766      1.55242     -165.069 
0.00947936      1.20000      180.000 
0.00520520      2.50000      180.000 
0.00656885      2.60000      180.000 
0.00239926      1.14018     -164.745 
0.00459583      1.80000      180.000 
0.00641109     0.500000      180.000 
0.00461178      2.70185     -177.879 
 0.0209321      2.15870     -166.608 
 0.0109607      2.81603     -173.884 
0.00601058      1.04403     -163.301 
 0.0190749      1.58114     -161.565 
0.00391484      1.90263      176.987 
 0.0164348      4.20476     -177.274 
 0.0104486      2.20227      177.397 
 0.0213836      1.20416      175.236 
0.00476273      3.53553     -171.870 
0.00967847      2.70185      177.879 
0.00615151      4.55412     -171.158 
0.00944547      3.40147     -178.315 
0.00295401      4.10000     -167.320 
 0.0133226      4.63897     -172.569 
0.00316237      3.55106     -170.272 
 0.0101213      4.72969     -166.551 
 0.0249742      1.07703     -158.199 
0.00448197      3.45254     -169.992 
0.00938557      1.80278      176.820 
 0.0101465      4.12311     -165.964 
 0.0102421      3.50000      180.000 
0.00373558      5.36004     -171.416 
0.00545323      5.34603     -172.476 
0.00620099      5.41479     -175.764 
0.00255741      4.82701     -166.827 
0.00354452      5.00400     -177.709 
0.00129723      5.37587     -170.362 
0.00774066      2.82843     -171.870 
0.00244387      5.51090     -168.486 
0.00717445      3.47131     -168.366 
0.00121036      5.40833     -176.820 
0.00519341      5.92115     -175.156 
0.00570189      4.75395     -165.379 
0.00111368      5.60892     -168.690 
0.00873294      5.86941     -171.180 
0.00285516      5.53173     -167.471 
0.00101327      5.50364     -177.917 
 0.0113167     0.509902      168.690 
0.000997268      4.11947     -174.428 
0.00384759      5.00100     -178.854 
 0.0162766     0.400000      0.00000 
0.00186060      5.60089     -178.977 
0.00550752      4.20119     -178.636 
0.00145370      4.25793     -170.538 
0.00444431      6.02080     -175.236 
0.00634163      5.70000      180.000 
0.00730395      2.80179      177.955 
0.00377960      5.45711     -166.218 
0.000827857      4.78017     -164.219 
 0.0127031     0.360555     -146.310 
0.00226403      6.30079     -179.091 
0.000789194      2.30217      177.510 
0.00402705      4.71275     -162.719 
0.00709452      2.20907      174.806 
0.00203176      4.13038     -173.047 
0.000731314      3.81182      175.486 
0.00388887      5.00000      180.000 
0.00593037      3.92046      174.144 
0.00193074      6.30000      180.000 
0.00279558      4.70956      176.348 
0.00577729      5.38516     -164.932 
0.00169767      4.90408      177.663 
0.000592051      5.70701     -168.887 
0.00574425      6.40078      179.105 
0.00261625      5.26118     -171.254 
0.00227178      6.11310     -176.248 
0.00646009      1.21655      170.538 
0.00475134      4.64866     -161.175 
0.00347995      5.62939     -167.692 
0.00305305      1.70294      176.634 
0.00573659      5.92115      175.156 
0.000505196      4.02616     -165.619 
0.00547661      6.47765     -171.119 
0.00216297      4.61736      175.030 
0.00306350      2.76586     -167.471 
0.000473059      5.88558     -170.218 
0.000470229      6.08769     -165.735 
0.00419933      6.18466     -165.964 
0.000443244      1.48661     -160.346 
0.00181966      6.20725     -177.230 
0.000866516      4.70744     -167.735 
0.00494820     0.360555     -123.690 
0.00210068      5.12640     -159.444 
0.00173345      3.32415     -158.839 
0.00140878      4.71699      175.135 
0.00206322      5.32353      174.611 
0.00421989      1.02956     -150.945 
0.00135998      5.93043      174.193 
0.00207536      5.39351      169.315 
0.00135880      3.36155     -157.249 
0.000511392      2.30868      175.030 
0.00365078      6.76018      172.349 
0.00308336      5.78705     -161.878 
0.000886755      4.58803     -159.590 
0.00132604      1.11803      169.695 
0.00246059      3.35410      169.695 
0.00204348      6.50308      178.238 
0.00153117      5.16236     -158.405 
0.00316006      4.51885     -155.136 
0.00142744      4.86621      170.538 
0.000956374      2.15407     -158.199 
0.00351977     0.538517      158.199 
0.000229163      2.80713      175.914 
0.000587445      2.19317     -155.772 
0.00151909      6.71193     -176.583 
0.000500225      5.33385     -173.541 
0.000367101      4.03113      172.875 
0.000650754      5.94138     -173.234 
0.00112805      2.43310      170.538 
0.000352822      5.41202     -163.909 
0.000177289      4.90918     -176.496 
0.000176693      6.25859     -167.074 
0.000756469      5.51090      168.486 
0.000316269      4.03113     -172.875 
0.000162523      4.60977      176.269 
-0.00544679     0.670820     -153.435 
-0.00162106     0.707107      8.13010 
-0.00230426     0.632456      18.4349 
0.000431996      4.90408     -177.663 
0.000291120      6.35610     -167.276 
0.000422075      5.72451     -160.615 
0.000142278      2.84429     -169.875 
0.000410463     0.943398      32.0054 
0.000137495      3.40588     -176.634 
0.000136449      6.50692      177.357 
0.000136078      2.12132     -171.870 
0.000135072      2.10238     -154.654 
